session_id,sona_id,consent,participant_features,feature_settings,session_start,session_end,chat_duration_seconds,timestamp,trial_number,message_content,option_a_content,option_b_content,selected_option,selection_latency_ms,test_type
38f7959c-d4b8-4a7e-97bf-a46586afd993,321312,True,"SLOWDOWN:0,ERASE_HISTORY:0,BLOCK_MSGS:0,LIE:0,RUDE_TONE:0,KIND_TONE:1,ADVICE_ONLY:0,NO_MEMORY:0,PERSONA:0,AB_TESTING:1,AB_UI_TEST:0,MIRROR:0,ANTI_MIRROR:0,GRAMMAR_ERRORS:0,TYPEWRITER:0,THINKING:0,POSITIVE_FEEDBACK:0,NEUTRAL_FEEDBACK:0,CRITICAL_FEEDBACK:0,WEB_SEARCH:0,HEDGING_LANGUAGE:0,DELAY_BEFORE_SEND:0,AUTO_END_AFTER_N_MSGS:0,AUTO_END_AFTER_T_MIN:0,TEXT_SIZE_CHANGER:0,STREAMING:0","text_size:20,delay_seconds:2,auto_end_messages:10,auto_end_minutes:5,slowdown_period_s:100,slowdown_window_s:20,slowdown_min_delay_s:4,slowdown_permanent_after_enabled:False,slowdown_permanent_after_s:600,erase_history_delay_s:60,erase_history_repeat:False,erase_history_interval_s:120,block_message_count:5,block_duration_s:15,block_repeat:True,ab_lie_b:False,ab_rude_tone_b:False,ab_kind_tone_b:False,ab_advice_only_b:True,ab_no_memory_b:False,ab_persona_b:False,ab_mirror_b:False,ab_anti_mirror_b:False,ab_grammar_errors_b:False,ab_positive_feedback_b:False,ab_critical_feedback_b:False,ab_neutral_feedback_b:False,ab_hedging_b:False,ab_streaming_b:False,ab_text_size_changer_b:False,ab_typewriter_b:False,ab_thinking_b:False",2025-08-10T14:39:53.820288,2025-08-10T14:45:02.950039,309,2025-08-10T14:44:14.136240,1,Make a snake game code for me,"Absolutely! Here's a simple Python version of the classic Snake game using the `pygame` library. If you don't have `pygame` installed, you can install it using:

```bash
pip install pygame
```

And here's the complete code for the Snake game:

```python
import pygame
import random
import sys

# Initialize pygame
pygame.init()

# Screen dimensions
WIDTH, HEIGHT = 600, 400
screen = pygame.display.set_mode((WIDTH, HEIGHT))
pygame.display.set_caption('Snake Game')

# Colors
WHITE = (255, 255, 255)
BLACK = (0, 0, 0)
GREEN = (0, 255, 0)
RED = (255, 0, 0)

# Set up clock
clock = pygame.time.Clock()
SNAKE_SPEED = 15

# Snake properties
snake_block = 10
snake_list = []

# Font style
font_style = pygame.font.SysFont(None, 25)

def message(msg, color, position):
    mesg = font_style.render(msg, True, color)
    screen.blit(mesg, position)

def gameLoop():
    game_over = False
    game_close = False

    x1 = WIDTH / 2
    y1 = HEIGHT / 2

    x1_change = 0
    y1_change = 0

    snake_list = []
    length_of_snake = 1

    # Place the first food
    foodx = round(random.randrange(0, WIDTH - snake_block) / 10.0) * 10.0
    foody = round(random.randrange(0, HEIGHT - snake_block) / 10.0) * 10.0

    while not game_over:

        while game_close:
            screen.fill(BLACK)
            message(""Game Over! Press Q-Quit or C-Play Again"", RED, [WIDTH / 6, HEIGHT / 3])
            pygame.display.update()

            for event in pygame.event.get():
                if event.type == pygame.KEYDOWN:
                    if event.key == pygame.K_q:
                        game_over = True
                        game_close = False
                    if event.key == pygame.K_c:
                        gameLoop()

        for event in pygame.event.get():
            if event.type == pygame.QUIT:
                game_over = True
            if event.type == pygame.KEYDOWN:
                if event.key == pygame.K_LEFT:
                    x1_change = -snake_block
                    y1_change = 0
                elif event.key == pygame.K_RIGHT:
                    x1_change = snake_block
                    y1_change = 0
                elif event.key == pygame.K_UP:
                    y1_change = -snake_block
                    x1_change = 0
                elif event.key == pygame.K_DOWN:
                    y1_change = snake_block
                    x1_change = 0

        # Check boundaries
        if x1 >= WIDTH or x1 < 0 or y1 >= HEIGHT or y1 < 0:
            game_close = True

        x1 += x1_change
        y1 += y1_change
        screen.fill(BLACK)
        pygame.draw.rect(screen, RED, [foodx, foody, snake_block, snake_block])

        snake_head = []
        snake_head.append(x1)
        snake_head.append(y1)
        snake_list.append(snake_head)

        if len(snake_list) > length_of_snake:
            del snake_list[0]

        # Check for collision with itself
        for x in snake_list[:-1]:
            if x == snake_head:
                game_close = True

        # Draw snake
        for x in snake_list:
            pygame.draw.rect(screen, GREEN, [x[0], x[1], snake_block, snake_block])

        pygame.display.update()

        # Check if snake eats the food
        if x1 == foodx and y1 == foody:
            foodx = round(random.randrange(0, WIDTH - snake_block) / 10.0) * 10.0
            foody = round(random.randrange(0, HEIGHT - snake_block) / 10.0) * 10.0
            length_of_snake += 1

        clock.tick(SNAKE_SPEED)

    pygame.quit()
    sys.exit()

gameLoop()
```

### How to Run:
1. Save this code to a file named `snake_game.py`.
2. Open your terminal or command prompt.
3. Navigate to the directory containing `snake_game.py`.
4. Run the game with:

```bash
python snake_game.py
```

### How to Play:
- Use arrow keys to control the snake.
- The goal is to eat the red food blocks.
- The game ends if the snake hits the wall or itself.
- After game over, press **C** to play again or **Q** to quit.

Enjoy your game! If you'd like additional features or customization, just let me know!","Certainly! To help you create a Snake game, I recommend starting with a programming language like Python, which is beginner-friendly and has libraries such as Pygame that make game development easier. Here are some resources and strategies:

1. **Use Python with Pygame:**
   - Install Pygame: `pip install pygame`
   - Follow tutorials that walk through building a Snake game step-by-step. You can find many of these online on platforms like YouTube, Real Python, or GeeksforGeeks.
   - Example tutorials:
     - ""Snake Game using Pygame"" on YouTube
     - Pygame tutorials on https://realpython.com/

2. **Sample Code Outline:**
   - Initialize the game window
   - Create variables for snake position, length, and direction
   - Handle user input for direction
   - Generate food at random locations
   - Detect collisions with walls or self
   - Update the display and control game speed with a clock

3. **Sample Resources & Templates:**
   - GitHub repositories with Snake game codes you can customize
   - Online snippets that you can adapt

Would you like a more detailed step-by-step guide or specific code snippets to get started?",B,23670,content_test
